Cytomass frequency sweep file

File creation date:	6/28/2018
File creation time:	4:17:58 PM

Sweep parameters
Centre frequency (Hz):	84597.584983
Sweep range (Hz):	60000.000000
Excitation amplitude (V):	4.600000
Number of points:	256
Step time (s):	0.100000


Fit parameters
Q factor:	3.034323
Prior reference phase (deg):	-177.246211
Phase offset (deg):	-0.245292
New reference phase (deg):	-177.000919
Reference frequency (Hz):	84597.584983
Peak amplitude frequency (Hz):	81780.697468


Sweep data
Frequency (Hz)	Amplitude (V)	Phase (deg)
54487.333782	10.583400	108.155000
54721.708782	10.781100	108.274000
54956.083782	10.727300	107.913000
55190.458782	10.799600	104.936000
55424.833782	10.660500	105.403000
55659.208782	10.699900	105.779000
55893.583782	10.987000	104.837000
56127.958782	10.894000	103.919000
56362.333782	11.101200	104.239000
56596.708782	11.025000	103.018000
56831.083782	11.324500	103.071000
57065.458782	11.034000	102.285000
57299.833782	11.184100	103.936000
57534.208782	11.297500	103.322000
57768.583782	11.309600	102.227000
58002.958782	11.426000	100.186000
58237.333782	11.425000	99.822500
58471.708782	11.439700	100.363000
58706.083782	11.632500	99.181400
58940.458782	11.729800	98.774500
59174.833782	11.476000	98.307900
59409.208782	11.772700	98.105900
59643.583782	11.785900	96.845900
59877.958782	11.622400	96.621700
60112.333782	11.831100	95.295700
60346.708782	11.818700	96.281500
60581.083782	12.140100	95.088500
60815.458782	12.095800	94.383300
61049.833782	12.305000	94.349000
61284.208782	12.010900	94.117800
61518.583782	12.181600	92.323300
61752.958782	12.466300	92.682900
61987.333782	12.440400	92.481000
62221.708782	12.405000	90.611200
62456.083782	12.494800	90.296600
62690.458782	12.405200	90.399200
62924.833782	12.764900	89.633500
63159.208782	12.856800	87.885100
63393.583782	12.570600	88.973000
63627.958782	12.926000	88.877100
63862.333782	12.721800	87.915100
64096.708782	12.968700	85.895100
64331.083782	12.969700	86.330900
64565.458782	13.216900	85.845300
64799.833782	12.996200	85.856300
65034.208782	13.239500	84.213400
65268.583782	13.311500	83.105200
65502.958782	13.078700	83.230400
65737.333782	13.349800	83.014300
65971.708782	13.417800	82.637000
66206.083782	13.552500	81.330000
66440.458782	13.662000	80.422800
66674.833782	13.585800	78.947900
66909.208782	13.672800	78.997400
67143.583782	13.677000	77.256800
67377.958782	14.115400	78.015300
67612.333782	14.089200	75.765100
67846.708782	13.939700	76.454900
68081.083782	13.961200	76.155100
68315.458782	14.200700	75.079200
68549.833782	14.286300	74.218900
68784.208782	14.688300	72.439700
69018.583782	14.674500	71.444700
69252.958782	14.585400	71.191100
69487.333782	14.580800	70.239500
69721.708782	14.587200	70.107900
69956.083782	14.963600	69.093500
70190.458782	14.961400	69.250300
70424.833782	14.833000	67.724900
70659.208782	15.246800	66.022700
70893.583782	15.096500	65.433400
71127.958782	15.421900	65.062800
71362.333782	15.326400	63.825100
71596.708782	15.319800	63.056600
71831.083782	15.326800	62.400500
72065.458782	15.350900	61.478600
72299.833782	15.756400	59.267600
72534.208782	15.619000	59.367200
72768.583782	15.749500	58.003100
73002.958782	15.955600	57.519000
73237.333782	15.964300	56.876000
73471.708782	15.985500	56.543700
73706.083782	16.103100	54.923700
73940.458782	16.039700	53.206100
74174.833782	16.142100	52.165700
74409.208782	16.497600	51.925000
74643.583782	16.268100	49.821100
74877.958782	16.182200	50.134900
75112.333782	16.361700	48.361100
75346.708782	16.590800	47.371000
75581.083782	16.368300	47.094700
75815.458782	16.655400	46.088200
76049.833782	16.609900	43.843400
76284.208782	16.973600	42.574300
76518.583782	16.803100	42.087800
76752.958782	16.869700	41.669300
76987.333782	16.970100	39.878200
77221.708782	16.790000	38.996500
77456.083782	16.799100	37.561700
77690.458782	17.014200	36.395800
77924.833782	16.832000	34.072700
78159.208782	17.233400	34.541200
78393.583782	16.901400	32.867100
78627.958782	17.184200	31.165400
78862.333782	17.166800	30.059600
79096.708782	16.903100	29.313300
79331.083782	17.131800	27.720900
79565.458782	17.053700	26.171900
79799.833782	16.885400	24.847600
80034.208782	17.100800	24.093100
80268.583782	17.286700	23.064200
80502.958782	17.189300	21.038400
80737.333782	16.885800	20.311800
80971.708782	16.913800	18.533000
81206.083782	16.929600	17.140800
81440.458782	16.779500	15.871900
81674.833782	16.568800	15.671900
81909.208782	16.779200	13.403400
82143.583782	16.938500	12.476700
82377.958782	16.862100	10.932000
82612.333782	16.533200	9.358410
82846.708782	16.396900	7.957790
83081.083782	16.246400	7.750780
83315.458782	16.514400	6.083960
83549.833782	16.099400	6.079230
83784.208782	16.377900	3.510520
84018.583782	16.246200	2.031040
84252.958782	15.891200	0.929504
84487.333782	16.101000	-0.602388
84721.708782	15.696900	-1.764730
84956.083782	15.476000	-2.678820
85190.458782	15.416400	-4.474910
85424.833782	15.334200	-5.819400
85659.208782	15.401500	-6.700640
85893.583782	15.178600	-8.381630
86127.958782	14.937800	-9.755490
86362.333782	15.026700	-10.999000
86596.708782	14.774100	-12.249500
86831.083782	14.978200	-12.305100
87065.458782	14.419500	-13.551100
87299.833782	14.707900	-14.381700
87534.208782	14.158900	-15.806400
87768.583782	14.134800	-17.377100
88002.958782	14.020000	-18.915200
88237.333782	13.694700	-20.352800
88471.708782	13.748300	-21.160900
88706.083782	13.516900	-22.581200
88940.458782	13.305600	-22.974000
89174.833782	13.489200	-24.657500
89409.208782	13.118200	-26.007400
89643.583782	12.553500	-26.772500
89877.958782	12.644300	-26.158000
90112.333782	12.599400	-28.656500
90346.708782	12.765700	-29.951600
90581.083782	12.258500	-30.811800
90815.458782	12.330300	-30.992000
91049.833782	12.036400	-33.080200
91284.208782	11.924500	-33.311200
91518.583782	11.546700	-33.746300
91752.958782	11.526100	-36.679400
91987.333782	11.299400	-36.303800
92221.708782	11.327400	-38.904200
92456.083782	11.133800	-38.174500
92690.458782	11.006900	-40.005800
92924.833782	10.715500	-41.560100
93159.208782	10.631800	-42.525700
93393.583782	10.394700	-42.391400
93627.958782	10.392900	-44.319200
93862.333782	10.251500	-45.581800
94096.708782	10.196600	-45.182400
94331.083782	10.139400	-46.134900
94565.458782	10.017400	-47.057900
94799.833782	9.908570	-47.089100
95034.208782	9.708010	-48.593000
95268.583782	9.398260	-48.655000
95502.958782	9.300920	-50.588400
95737.333782	9.136480	-52.485300
95971.708782	9.088250	-51.302000
96206.083782	8.992680	-52.822500
96440.458782	9.006180	-54.724800
96674.833782	8.979660	-54.057300
96909.208782	8.677070	-56.223200
97143.583782	8.798370	-56.710400
97377.958782	8.556090	-55.672300
97612.333782	8.125030	-58.181300
97846.708782	8.385430	-59.413800
98081.083782	8.149560	-57.050900
98315.458782	8.002230	-59.013200
98549.833782	7.803490	-60.702700
98784.208782	7.562960	-61.997000
99018.583782	7.786660	-63.262300
99252.958782	7.556050	-63.454200
99487.333782	7.327080	-64.286500
99721.708782	7.323960	-64.613200
99956.083782	7.136650	-63.630800
100190.458782	7.127300	-65.598700
100424.833782	7.224790	-64.765800
100659.208782	7.191330	-68.351200
100893.583782	7.090310	-66.470300
101127.958782	7.007450	-66.214900
101362.333782	6.769330	-68.086600
101596.708782	6.751450	-68.159100
101831.083782	6.640040	-70.367100
102065.458782	6.341390	-70.150600
102299.833782	6.529050	-71.969500
102534.208782	6.319530	-72.424700
102768.583782	6.088990	-72.966300
103002.958782	6.208540	-73.631100
103237.333782	6.199490	-75.484100
103471.708782	6.143770	-74.716600
103706.083782	5.862180	-75.785700
103940.458782	6.126540	-75.362100
104174.833782	5.753180	-79.415400
104409.208782	5.548530	-79.756000
104643.583782	5.591840	-78.028300
104877.958782	5.605950	-78.923000
105112.333782	5.444740	-79.593600
105346.708782	5.345460	-79.534600
105581.083782	5.435220	-81.019000
105815.458782	5.442690	-83.438100
106049.833782	5.337730	-81.313400
106284.208782	5.172420	-82.697700
106518.583782	5.130390	-82.463000
106752.958782	4.981640	-84.806800
106987.333782	4.859530	-86.251600
107221.708782	5.033450	-85.272400
107456.083782	4.774860	-79.869800
107690.458782	4.848320	-84.826300
107924.833782	4.879500	-88.463600
108159.208782	4.416200	-87.311800
108393.583782	4.506120	-90.128800
108627.958782	4.728540	-91.177300
108862.333782	4.493680	-93.045100
109096.708782	4.290880	-90.604900
109331.083782	4.320480	-89.766800
109565.458782	4.224500	-89.846400
109799.833782	4.462660	-94.251100
110034.208782	4.304620	-89.067800
110268.583782	4.474710	-92.351300
110502.958782	4.269330	-94.034900
110737.333782	4.287220	-92.573800
110971.708782	4.235970	-92.100700
111206.083782	3.924910	-96.951800
111440.458782	3.847200	-97.755400
111674.833782	3.939660	-95.382400
111909.208782	3.867040	-95.896400
112143.583782	3.718950	-97.713200
112377.958782	3.940640	-99.942500
112612.333782	3.521840	-101.218000
112846.708782	3.633450	-99.403600
113081.083782	3.681800	-100.607000
113315.458782	3.768140	-98.679300
113549.833782	3.685140	-102.266000
113784.208782	3.448260	-102.976000
114018.583782	3.631380	-104.812000
114252.958782	3.301350	-102.354000
