Cytomass frequency sweep file

File creation date:	6/28/2018
File creation time:	4:28:55 PM

Sweep parameters
Centre frequency (Hz):	84073.808223
Sweep range (Hz):	60000.000000
Excitation amplitude (V):	4.600000
Number of points:	256
Step time (s):	0.100000


Fit parameters
Q factor:	2.990506
Prior reference phase (deg):	-177.224648
Phase offset (deg):	0.192638
New reference phase (deg):	-177.417286
Reference frequency (Hz):	84073.808223
Peak amplitude frequency (Hz):	81246.496259


Sweep data
Frequency (Hz)	Amplitude (V)	Phase (deg)
54100.609128	10.591600	107.402000
54334.984128	10.586500	108.025000
54569.359128	10.691300	106.904000
54803.734128	10.564500	106.183000
55038.109128	10.759200	106.059000
55272.484128	10.991700	106.789000
55506.859128	10.823800	105.884000
55741.234128	10.918000	104.087000
55975.609128	11.023000	104.806000
56209.984128	11.200700	103.643000
56444.359128	11.364100	103.241000
56678.734128	11.187900	102.900000
56913.109128	11.222900	103.384000
57147.484128	11.356000	101.896000
57381.859128	11.597600	102.062000
57616.234128	11.322500	101.250000
57850.609128	11.472900	99.885400
58084.984128	11.448200	100.867000
58319.359128	11.675000	99.215900
58553.734128	11.712000	99.745200
58788.109128	11.725100	98.730900
59022.484128	11.929500	97.546500
59256.859128	11.902400	96.871100
59491.234128	11.815000	97.881200
59725.609128	11.865800	97.347800
59959.984128	12.128900	97.431700
60194.359128	12.051700	94.646700
60428.734128	12.212600	94.020300
60663.109128	12.268500	95.467000
60897.484128	12.317600	93.716400
61131.859128	12.194500	93.602500
61366.234128	12.332200	94.060400
61600.609128	12.226700	92.400000
61834.984128	12.422900	90.607500
62069.359128	12.704200	90.987900
62303.734128	12.693800	91.135400
62538.109128	12.549300	88.929100
62772.484128	12.967200	88.733100
63006.859128	12.756300	88.427000
63241.234128	12.638000	88.892000
63475.609128	12.756000	88.084100
63709.984128	12.686200	87.175000
63944.359128	12.931100	85.640800
64178.734128	13.234700	85.643900
64413.109128	12.992100	84.917500
64647.484128	13.098100	83.984300
64881.859128	13.400200	82.962400
65116.234128	13.504900	82.267600
65350.609128	13.358400	80.667100
65584.984128	13.338000	82.006000
65819.359128	13.454900	80.756500
66053.734128	13.794100	80.653500
66288.109128	13.695900	79.490900
66522.484128	13.863900	79.112100
66756.859128	13.881700	78.063300
66991.234128	14.030400	76.969200
67225.609128	13.997500	76.077400
67459.984128	14.205200	75.603400
67694.359128	14.293000	74.756000
67928.734128	14.370000	74.331800
68163.109128	14.363600	73.750900
68397.484128	14.255400	72.379100
68631.859128	14.631800	71.923400
68866.234128	14.604000	72.578900
69100.609128	14.755400	70.958700
69334.984128	14.861500	69.944400
69569.359128	14.748100	69.118200
69803.734128	15.050200	68.013000
70038.109128	14.912700	68.024400
70272.484128	15.222000	67.322800
70506.859128	15.266600	65.540800
70741.234128	15.197800	65.252200
70975.609128	15.368100	63.500000
71209.984128	15.280400	62.421900
71444.359128	15.554200	61.824900
71678.734128	15.441500	61.487600
71913.109128	15.647800	60.772800
72147.484128	15.705500	58.609800
72381.859128	15.913000	57.549900
72616.234128	15.903200	56.761700
72850.609128	15.883900	55.365600
73084.984128	15.972400	56.693000
73319.359128	16.191300	53.933300
73553.734128	16.075000	52.944400
73788.109128	16.481900	52.178200
74022.484128	16.392200	51.138600
74256.859128	16.234100	50.548900
74491.234128	16.327000	48.838800
74725.609128	16.476600	47.484300
74959.984128	16.542600	47.646000
75194.359128	16.739000	46.245800
75428.734128	16.791000	45.212900
75663.109128	16.736400	44.072900
75897.484128	16.946000	43.085100
76131.859128	16.914900	42.513000
76366.234128	16.652900	40.888300
76600.609128	17.057400	39.865400
76834.984128	16.953800	38.829800
77069.359128	16.904400	36.938000
77303.734128	16.861400	36.062100
77538.109128	17.136700	35.398200
77772.484128	17.046300	33.309700
78006.859128	17.084400	32.244300
78241.234128	17.122800	31.180100
78475.609128	17.145100	29.771800
78709.984128	17.052100	29.118500
78944.359128	17.047100	26.754500
79178.734128	16.969500	25.818900
79413.109128	16.968100	24.189900
79647.484128	17.186000	23.720600
79881.859128	16.970800	22.833900
80116.234128	17.092200	20.794600
80350.609128	16.894400	19.026900
80584.984128	17.091700	17.631500
80819.359128	16.857200	17.065100
81053.734128	16.912100	16.245100
81288.109128	16.691400	14.491500
81522.484128	16.842000	14.027600
81756.859128	16.850300	12.471400
81991.234128	16.620400	11.551900
82225.609128	16.585100	10.187600
82459.984128	16.519400	8.542780
82694.359128	16.339200	6.490110
82928.734128	16.321300	5.673430
83163.109128	16.276100	4.659010
83397.484128	15.809000	3.008420
83631.859128	15.900800	1.961280
83866.234128	16.039700	0.154364
84100.609128	15.687000	-1.446790
84334.984128	15.732800	-2.629620
84569.359128	15.673300	-3.349830
84803.734128	15.700500	-3.705780
85038.109128	15.402200	-6.239560
85272.484128	15.161600	-6.519160
85506.859128	15.066700	-8.371000
85741.234128	15.078800	-10.195700
85975.609128	14.842900	-10.227400
86209.984128	14.557400	-12.530800
86444.359128	14.432100	-13.109900
86678.734128	14.441600	-13.856200
86913.109128	14.398300	-15.315400
87147.484128	13.972700	-16.244000
87381.859128	13.794800	-18.645900
87616.234128	13.652900	-18.716200
87850.609128	14.007600	-20.955700
88084.984128	13.594100	-20.386800
88319.359128	13.631900	-21.755800
88553.734128	13.492500	-22.919400
88788.109128	13.246000	-25.242400
89022.484128	13.067000	-25.251200
89256.859128	12.884200	-26.273400
89491.234128	12.758500	-28.577100
89725.609128	12.566800	-29.473400
89959.984128	12.407500	-30.675600
90194.359128	12.388600	-30.375400
90428.734128	12.042900	-31.828500
90663.109128	11.893400	-33.762900
90897.484128	11.967800	-33.465300
91131.859128	11.610600	-34.892600
91366.234128	11.315300	-36.045000
91600.609128	11.351700	-37.941900
91834.984128	11.265900	-36.884400
92069.359128	11.229300	-39.277700
92303.734128	10.823700	-39.004200
92538.109128	10.692500	-40.796700
92772.484128	10.630200	-41.861200
93006.859128	10.557300	-42.747500
93241.234128	10.557300	-43.023300
93475.609128	10.051900	-43.443100
93709.984128	10.120900	-44.256700
93944.359128	9.792340	-47.623600
94178.734128	9.897160	-47.368600
94413.109128	9.645290	-47.956900
94647.484128	9.434740	-50.050100
94881.859128	9.401020	-50.131400
95116.234128	9.443170	-48.129000
95350.609128	9.054750	-52.187500
95584.984128	9.187760	-51.282400
95819.359128	8.890370	-52.046000
96053.734128	8.761240	-52.146000
96288.109128	8.832260	-55.582300
96522.484128	8.609080	-54.614300
96756.859128	8.482640	-55.645500
96991.234128	8.359390	-55.401700
97225.609128	8.151790	-56.766000
97459.984128	8.258180	-58.549400
97694.359128	7.969940	-58.230800
97928.734128	7.965750	-60.307200
98163.109128	7.955070	-62.113000
98397.484128	7.833970	-61.186500
98631.859128	7.778150	-62.404000
98866.234128	7.753970	-62.133900
99100.609128	7.523580	-64.480500
99334.984128	7.405590	-65.088100
99569.359128	7.155700	-65.045500
99803.734128	7.177640	-65.639900
100038.109128	7.035710	-65.798500
100272.484128	6.993940	-66.363500
100506.859128	6.876940	-66.348900
100741.234128	6.943410	-68.499500
100975.609128	6.788810	-69.286500
101209.984128	6.690770	-68.700500
101444.359128	6.263720	-70.079500
101678.734128	6.354250	-71.554900
101913.109128	6.385690	-72.668600
102147.484128	6.460290	-74.044100
102381.859128	6.145990	-72.025400
102616.234128	6.119740	-72.077700
102850.609128	6.272490	-74.535500
103084.984128	6.066990	-74.196900
103319.359128	5.968860	-76.477900
103553.734128	5.939620	-77.086400
103788.109128	5.927940	-77.777700
104022.484128	5.794770	-76.215300
104256.859128	5.647990	-78.621300
104491.234128	5.476180	-79.701600
104725.609128	5.591710	-79.292600
104959.984128	5.427050	-79.223200
105194.359128	5.433400	-79.191200
105428.734128	5.374580	-80.485400
105663.109128	5.339810	-82.521600
105897.484128	5.157490	-81.509800
106131.859128	5.039600	-82.234100
106366.234128	4.859670	-84.135900
106600.609128	5.079760	-83.826500
106834.984128	4.914640	-83.821000
107069.359128	4.852680	-85.424300
107303.734128	4.761990	-88.013100
107538.109128	4.772980	-85.681400
107772.484128	4.812540	-88.413800
108006.859128	4.642330	-86.621400
108241.234128	4.638130	-91.715900
108475.609128	4.418200	-89.969100
108709.984128	4.352860	-88.532700
108944.359128	4.634340	-92.539500
109178.734128	4.283980	-92.308500
109413.109128	4.506950	-91.284500
109647.484128	4.227970	-91.312700
109881.859128	3.977310	-95.327000
110116.234128	4.135950	-91.951500
110350.609128	3.992160	-95.023700
110584.984128	3.976970	-92.577000
110819.359128	4.199520	-96.041100
111053.734128	3.962750	-93.963100
111288.109128	3.888050	-94.815400
111522.484128	3.893130	-100.462000
111756.859128	3.943880	-98.561200
111991.234128	3.838350	-99.889400
112225.609128	3.695070	-99.953100
112459.984128	3.520240	-97.153900
112694.359128	3.657210	-98.618700
112928.734128	3.661650	-98.452600
113163.109128	3.760120	-101.582000
113397.484128	3.590250	-104.897000
113631.859128	3.652850	-102.400000
113866.234128	3.359020	-104.500000
